ppm,intensity
-40.7211,73.6406
-40.5738,79.5475
-40.4264,82.0914
-40.279,82.9204
-40.1317,86.687
-39.9843,91.2903
-39.8369,93.5702
-39.6896,95.4393
-39.5422,98.3289
-39.3949,101.795
-39.2475,104.359
-39.1001,105.269
-38.9528,104.463
-38.8054,102.409
-38.6581,100.756
-38.5107,102.666
-38.3633,108.175
-38.216,112.949
-38.0686,116.44
-37.9213,122.355
-37.7739,126.521
-37.6265,123.084
-37.4792,115.87
-37.3318,110.9
-37.1844,110.765
-37.0371,110.803
-36.8897,107.985
-36.7424,106.404
-36.595,109.197
-36.4476,118.971
-36.3003,134.211
-36.1529,145.437
-36.0056,146.168
-35.8582,140.231
-35.7108,130.664
-35.5635,118.492
-35.4161,107.757
-35.2688,101.587
-35.1214,102.601
-34.974,106.675
-34.8267,106.867
-34.6793,104.584
-34.5319,102.789
-34.3846,101.756
-34.2372,101.41
-34.0899,101.91
-33.9425,100.167
-33.7951,94.4008
-33.6478,89.9852
-33.5004,92.3245
-33.3531,101.367
-33.2057,112.508
-33.0583,122.41
-32.911,129.092
-32.7636,128.554
-32.6162,122.031
-32.4689,117.428
-32.3215,116.722
-32.1742,116.45
-32.0268,116.084
-31.8794,118.153
-31.7321,121.716
-31.5847,122.08
-31.4374,118.176
-31.29,112.682
-31.1426,109.619
-30.9953,110.073
-30.8479,112.501
-30.7006,113.631
-30.5532,113.669
-30.4058,114.43
-30.2585,117.835
-30.1111,126.498
-29.9637,134.688
-29.8164,139.894
-29.669,143.504
-29.5217,146.892
-29.3743,151.646
-29.2269,153.014
-29.0796,151.086
-28.9322,152.911
-28.7849,160.557
-28.6375,173.06
-28.4901,189.141
-28.3428,203.358
-28.1954,212.494
-28.0481,217.256
-27.9007,219.425
-27.7533,219.757
-27.606,217.904
-27.4586,216.03
-27.3112,215.488
-27.1639,213.511
-27.0165,204.717
-26.8692,189.203
-26.7218,177.046
-26.5744,177.748
-26.4271,186.999
-26.2797,194.973
-26.1324,198.745
-25.985,198.667
-25.8376,195.113
-25.6903,188.619
-25.5429,180.74
-25.3956,174.734
-25.2482,173.903
-25.1008,176.3
-24.9535,179.351
-24.8061,183.628
-24.6587,187.71
-24.5114,189.769
-24.364,186.827
-24.2167,178.433
-24.0693,169.107
-23.9219,160.947
-23.7746,153.808
-23.6272,150.694
-23.4799,153.445
-23.3325,158.509
-23.1851,161.365
-23.0378,160.139
-22.8904,154.885
-22.7431,146.626
-22.5957,141.041
-22.4483,140.94
-22.301,140.707
-22.1536,134.398
-22.0062,123.504
-21.8589,116.28
-21.7115,115.322
-21.5642,117.564
-21.4168,123.515
-21.2694,131.587
-21.1221,134.578
-20.9747,132.293
-20.8274,130.393
-20.68,130.344
-20.5326,130.364
-20.3853,131.897
-20.2379,134.501
-20.0906,131.513
-19.9432,124.541
-19.7958,120.104
-19.6485,122.082
-19.5011,128.569
-19.3537,132.484
-19.2064,130.574
-19.059,124.052
-18.9117,118.615
-18.7643,116.74
-18.6169,116.743
-18.4696,116.559
-18.3222,113.002
-18.1749,106.382
-18.0275,99.6398
-17.8801,96.2808
-17.7328,98.4837
-17.5854,105.115
-17.438,113.304
-17.2907,120.921
-17.1433,126.681
-16.996,128.185
-16.8486,127.5
-16.7012,128.841
-16.5539,129.322
-16.4065,126.119
-16.2592,122.009
-16.1118,119.531
-15.9644,119.186
-15.8171,119.314
-15.6697,118.326
-15.5224,117.924
-15.375,116.452
-15.2276,111.912
-15.0803,108.053
-14.9329,107.597
-14.7855,110.23
-14.6382,114.409
-14.4908,119.476
-14.3435,126.532
-14.1961,134.344
-14.0487,139.276
-13.9014,141.491
-13.754,140.502
-13.6067,135.528
-13.4593,131.315
-13.3119,131.258
-13.1646,134.426
-13.0172,138.018
-12.8699,141.567
-12.7225,145.517
-12.5751,149.925
-12.4278,156.114
-12.2804,163.66
-12.133,171.331
-11.9857,177.436
-11.8383,179.502
-11.691,176.607
-11.5436,169.645
-11.3962,162.254
-11.2489,158.136
-11.1015,157.261
-10.9542,159.402
-10.8068,163.324
-10.6594,166.172
-10.5121,166.207
-10.3647,163.506
-10.2174,160.017
-10.07,158.289
-9.92263,159.281
-9.77527,159.97
-9.62791,159.62
-9.48055,160.783
-9.33318,164.435
-9.18582,170.839
-9.03846,177.796
-8.8911,181.034
-8.74374,178.732
-8.59638,173.077
-8.44902,165.981
-8.30166,156.627
-8.1543,148.826
-8.00693,149.325
-7.85957,154.915
-7.71221,158.137
-7.56485,156.46
-7.41749,151.134
-7.27013,145.682
-7.12277,143.009
-6.97541,144.611
-6.82804,149.948
-6.68068,156.394
-6.53332,159.854
-6.38596,159.615
-6.2386,159.71
-6.09124,161.479
-5.94388,161.469
-5.79652,159.738
-5.64916,158.425
-5.50179,157.102
-5.35443,158.983
-5.20707,163.195
-5.05971,165.604
-4.91235,167.757
-4.76499,169.148
-4.61763,167.99
-4.47027,167.345
-4.32291,169.959
-4.17554,174.916
-4.02818,180.09
-3.88082,181.924
-3.73346,179.623
-3.5861,175.257
-3.43874,169.346
-3.29138,164.403
-3.14402,163.365
-2.99665,166.204
-2.84929,170.345
-2.70193,171.341
-2.55457,168.707
-2.40721,162.464
-2.25985,155.83
-2.11249,157.113
-1.96513,160.563
-1.81777,157.195
-1.6704,151.718
-1.52304,149.235
-1.37568,147.503
-1.22832,144.616
-1.08096,145.418
-0.933598,152.94
-0.786237,162.281
-0.638876,169.459
-0.491515,174.541
-0.344153,174.891
-0.196792,172.401
-0.0494311,174.621
0.0979301,179.985
0.245291,184.862
0.392652,190.335
0.540014,196.732
0.687375,203.051
0.834736,205.742
0.982097,204.776
1.12946,203.283
1.27682,202.069
1.42418,200.288
1.57154,197.294
1.7189,195.42
1.86626,194.785
2.01363,193.55
2.16099,193.529
2.30835,196.65
2.45571,201.579
2.60307,205.376
2.75043,205.447
2.89779,203.25
3.04515,202.043
3.19251,202.758
3.33988,203.567
3.48724,201.033
3.6346,196.855
3.78196,193.629
3.92932,192.884
4.07668,197.852
4.22404,207.031
4.3714,216.159
4.51877,225.062
4.66613,233.355
4.81349,239.034
4.96085,242.431
5.10821,244.314
5.25557,245.727
5.40293,243.164
5.55029,234.165
5.69765,225.725
5.84502,224.741
5.99238,229.074
6.13974,233.028
6.2871,236.164
6.43446,237.596
6.58182,235.747
6.72918,234.166
6.87654,238.003
7.02391,247.283
7.17127,256.21
7.31863,259.476
7.46599,260.707
7.61335,269.247
7.76071,282.457
7.90807,287.736
8.05543,283.682
8.20279,280.611
8.35016,282.999
8.49752,288.315
8.64488,294.015
8.79224,297.707
8.9396,300.437
9.08696,305.689
9.23432,310.749
9.38168,313.486
9.52904,315.317
9.67641,313.08
9.82377,308.635
9.97113,306.176
10.1185,307.244
10.2659,314.032
10.4132,324.499
10.5606,334.898
10.7079,343.54
10.8553,354.182
11.0027,369.856
11.15,388.094
11.2974,404.943
11.4447,414.796
11.5921,417.727
11.7395,417.359
11.8868,416.673
12.0342,419.695
12.1815,425.679
12.3289,433.746
12.4763,444.285
12.6236,458.16
12.771,477.2
12.9184,497.973
13.0657,516.963
13.2131,537.202
13.3604,562.698
13.5078,591.742
13.6552,624.345
13.8025,662.854
13.9499,705.907
14.0972,752.047
14.2446,800.758
14.392,854.772
14.5393,917.269
14.6867,985.551
14.834,1056.07
14.9814,1128.05
15.1288,1200.6
15.2761,1272.64
15.4235,1341.31
15.5709,1407.12
15.7182,1472.19
15.8656,1534.39
16.0129,1591.43
16.1603,1639.98
16.3077,1682.3
16.455,1722.85
16.6024,1760.25
16.7497,1790.59
16.8971,1812.19
17.0445,1829.36
17.1918,1847.91
17.3392,1871.39
17.4865,1898.35
17.6339,1925.87
17.7813,1955.44
17.9286,1990.28
18.076,2033.18
18.2234,2087.04
18.3707,2153.22
18.5181,2230.85
18.6654,2321.16
18.8128,2428.57
18.9602,2553.72
19.1075,2694.49
19.2549,2851.57
19.4022,3024.67
19.5496,3212.32
19.697,3412.88
19.8443,3625.34
19.9917,3846.51
20.139,4068.02
20.2864,4282.69
20.4338,4483.52
20.5811,4661
20.7285,4808.18
20.8759,4922.42
21.0232,5005.43
21.1706,5057.82
21.3179,5076.8
21.4653,5066.7
21.6127,5033.1
21.76,4977.44
21.9074,4904.9
22.0547,4822.32
22.2021,4738.94
22.3495,4665.28
22.4968,4608.54
22.6442,4569.68
22.7916,4545.22
22.9389,4537.65
23.0863,4553.77
23.2336,4595.44
23.381,4655.82
23.5284,4727.81
23.6757,4815.9
23.8231,4923.72
23.9704,5047
24.1178,5182.12
24.2652,5326.58
24.4125,5478.99
24.5599,5638.91
24.7072,5799.31
24.8546,5944.1
25.002,6063.74
25.1493,6153.66
25.2967,6200.92
25.4441,6197.45
25.5914,6149.73
25.7388,6059.6
25.8861,5921.38
26.0335,5743.23
26.1809,5542.41
26.3282,5335.5
26.4756,5136.57
26.6229,4954.74
26.7703,4795.14
26.9177,4663.17
27.065,4567.07
27.2124,4507.25
27.3597,4477.51
27.5071,4475.04
27.6545,4500.39
27.8018,4554.46
27.9492,4637.21
28.0966,4745.99
28.2439,4877.23
28.3913,5024.07
28.5386,5180.52
28.686,5348.79
28.8334,5529.96
28.9807,5718.17
29.1281,5901.29
29.2754,6074.85
29.4228,6240.93
29.5702,6396.65
29.7175,6538.35
29.8649,6661.76
30.0122,6761.72
30.1596,6833.77
30.307,6879.99
30.4543,6903.5
30.6017,6905.22
30.7491,6884.53
30.8964,6838.18
31.0438,6768.47
31.1911,6679.81
31.3385,6576.42
31.4859,6463.9
31.6332,6343.6
31.7806,6214.82
31.9279,6077.41
32.0753,5930.22
32.2227,5773.39
32.37,5604.33
32.5174,5419.9
32.6647,5221.11
32.8121,5014.68
32.9595,4809.52
33.1068,4604.73
33.2542,4398.33
33.4016,4192.2
33.5489,3985.73
33.6963,3780.25
33.8436,3580.78
33.991,3386.81
34.1384,3193.66
34.2857,3004.88
34.4331,2824.78
34.5804,2655.5
34.7278,2497.94
34.8752,2351.31
35.0225,2214.17
35.1699,2084.98
35.3172,1966.65
35.4646,1858.08
35.612,1758.43
35.7593,1670.05
35.9067,1592.1
36.0541,1521.58
36.2014,1458.26
36.3488,1404.01
36.4961,1354.65
36.6435,1308
36.7909,1264.5
36.9382,1225.5
37.0856,1191.98
37.2329,1160.53
37.3803,1130.92
37.5277,1107.51
37.675,1093.22
37.8224,1081.56
37.9698,1064.86
38.1171,1045.32
38.2645,1028.08
38.4118,1015.5
38.5592,1008.38
38.7066,1004.65
38.8539,999.5
39.0013,990.575
39.1486,981.225
39.296,978.666
39.4434,985.422
39.5907,998.309
39.7381,1015.75
39.8854,1037.76
40.0328,1066.2
40.1802,1103.45
40.3275,1150.04
40.4749,1204.58
40.6223,1263.07
40.7696,1323.38
40.917,1387.73
41.0643,1461.72
41.2117,1544.15
41.3591,1626.97
41.5064,1708.86
41.6538,1788.47
41.8011,1862.78
41.9485,1932.03
42.0959,1991.72
42.2432,2037.93
42.3906,2072.32
42.5379,2090.23
42.6853,2085.88
42.8327,2064.3
42.98,2035.81
43.1274,2000.92
43.2748,1953.04
43.4221,1896.18
43.5695,1835.48
43.7168,1768.96
43.8642,1695.76
44.0116,1618.31
44.1589,1541.3
44.3063,1469.29
44.4536,1403.54
44.601,1340.56
44.7484,1276.17
44.8957,1213.37
45.0431,1157.67
45.1904,1109.54
45.3378,1071.44
45.4852,1046.03
45.6325,1030.67
45.7799,1021.1
45.9273,1017.97
46.0746,1023.94
46.222,1035.82
46.3693,1052.88
46.5167,1075.69
46.6641,1103.14
46.8114,1134.77
46.9588,1167.41
47.1061,1200.77
47.2535,1233.91
47.4009,1267.1
47.5482,1303.53
47.6956,1337.83
47.8429,1366.46
47.9903,1393.07
48.1377,1421.22
48.285,1456.32
48.4324,1501.81
48.5798,1557.92
48.7271,1621.49
48.8745,1687.76
49.0218,1757.73
49.1692,1831.01
49.3166,1900.3
49.4639,1958.62
49.6113,2003.18
49.7586,2033.08
49.906,2048.6
50.0534,2055.62
50.2007,2061.97
50.3481,2071.6
50.4955,2093.69
50.6428,2139.33
50.7902,2207.49
50.9375,2295.12
51.0849,2401.57
51.2323,2524.38
51.3796,2658.47
51.527,2798.19
51.6743,2942.25
51.8217,3088.35
51.9691,3233.48
52.1164,3369.17
52.2638,3486.39
52.4111,3581.71
52.5585,3655.6
52.7059,3711.99
52.8532,3749.35
53.0006,3767.78
53.148,3772.17
53.2953,3768.39
53.4427,3755.08
53.59,3725.42
53.7374,3682.9
53.8848,3633.91
54.0321,3579.02
54.1795,3518.09
54.3268,3453.93
54.4742,3384.42
54.6216,3305.41
54.7689,3221.67
54.9163,3138.65
55.0636,3056.62
55.211,2971.98
55.3584,2881.38
55.5057,2785.34
55.6531,2688.64
55.8005,2595.53
55.9478,2501.27
56.0952,2401.88
56.2425,2297.6
56.3899,2188.41
56.5373,2079.87
56.6846,1980.18
56.832,1888
56.9793,1799.12
57.1267,1718
57.2741,1647.15
57.4214,1585.45
57.5688,1533.17
57.7161,1494.42
57.8635,1472.4
58.0109,1466.82
58.1582,1477.79
58.3056,1502.8
58.453,1541.3
58.6003,1594.82
58.7477,1666.12
58.895,1757.81
59.0424,1873.89
59.1898,2014.73
59.3371,2172.74
59.4845,2346.42
59.6318,2534.17
59.7792,2725.75
59.9266,2913.67
60.0739,3095.92
60.2213,3266.51
60.3686,3418.79
60.516,3552.65
60.6634,3666.22
60.8107,3754.2
60.9581,3814.39
61.1055,3845.83
61.2528,3852.35
61.4002,3838.92
61.5475,3802.84
61.6949,3741.62
61.8423,3655.23
61.9896,3546.72
62.137,3419.38
62.2843,3274.34
62.4317,3118.48
62.5791,2962.96
62.7264,2815.93
62.8738,2675.21
63.0211,2535.73
63.1685,2400.25
63.3159,2270.09
63.4632,2142.72
63.6106,2020.59
63.758,1908.48
63.9053,1806.07
64.0527,1710.68
64.2,1623.43
64.3474,1545.88
64.4948,1472.81
64.6421,1397.41
64.7895,1321.05
64.9368,1246.3
65.0842,1172.98
65.2316,1103.03
65.3789,1037.2
65.5263,972.273
65.6737,904.089
65.821,834.373
65.9684,768.527
66.1157,711.913
66.2631,662.154
66.4105,609.336
66.5578,554.029
66.7052,504.425
66.8525,463.405
66.9999,426.325
67.1473,391.016
67.2946,357.283
67.442,321.808
67.5893,288.093
67.7367,262.541
67.8841,242.272
68.0314,222.105
68.1788,205.158
68.3262,191.915
68.4735,180.93
68.6209,170.129
68.7682,158.147
68.9156,148.683
69.063,138.301
69.2103,124.33
69.3577,109.834
69.505,101.898
69.6524,102.784
69.7998,102.874
69.9471,98.64
70.0945,94.5042
70.2418,93.838
70.3892,94.6678
70.5366,91.898
70.6839,86.2895
70.8313,80.4714
70.9787,74.366
71.126,70.9365
71.2734,73.9697
71.4207,80.9184
71.5681,86.9992
71.7155,91.7856
71.8628,94.4239
72.0102,95.2574
72.1575,95.7183
72.3049,96.9351
72.4523,99.937
72.5996,98.0162
72.747,88.9219
72.8943,79.3101
73.0417,75.1731
73.1891,77.4931
73.3364,80.1641
73.4838,79.4792
73.6312,75.6401
73.7785,67.2199
73.9259,57.8499
74.0732,55.4877
74.2206,58.4925
74.368,56.8889
74.5153,49.1044
74.6627,42.714
74.81,39.92
74.9574,39.6656
75.1048,40.2156
75.2521,40.6
75.3995,43.6983
75.5468,47.7085
75.6942,50.0999
75.8416,51.8525
75.9889,49.6422
76.1363,41.7022
76.2837,34.2859
76.431,30.2017
76.5784,26.8041
76.7257,22.7076
76.8731,20.708
77.0205,22.1608
77.1678,25.0687
77.3152,28.7508
77.4625,28.8883
77.6099,24.295
77.7573,18.4314
77.9046,13.6837
78.052,10.4733
78.1993,7.22824
78.3467,3.99774
78.4941,-0.514276
78.6414,-4.74221
78.7888,-5.77542
78.9362,-4.31518
79.0835,-1.77371
79.2309,0.14571
79.3782,2.34857
79.5256,5.51974
79.673,8.49023
79.8203,11.1595
79.9677,16.1853
80.115,24.1211
80.2624,28.8718
80.4098,26.7323
80.5571,20.7657
80.7045,14.7222
80.8519,12.0243
80.9992,13.7867
81.1466,16.8369
81.2939,16.6465
81.4413,9.00331
81.5887,-2.69138
81.736,-13.8267
81.8834,-21.2024
82.0307,-20.3529
82.1781,-15.9136
82.3255,-13.4481
82.4728,-11.7845
82.6202,-9.58441
82.7675,-4.78137
82.9149,3.76504
83.0623,8.23103
83.2096,7.49459
83.357,8.67843
83.5044,13.2885
83.6517,22.1094
83.7991,32.2668
83.9464,39.5038
84.0938,42.8463
84.2412,43.4843
84.3885,43.4305
84.5359,44.6162
84.6832,44.9784
84.8306,41.9647
84.978,37.0351
85.1253,30.0836
85.2727,21.6802
85.42,13.8543
85.5674,7.01044
85.7148,1.84915
85.8621,2.03724
86.0095,6.41401
86.1569,7.64865
86.3042,3.99603
86.4516,2.2991
86.5989,3.902
86.7463,1.60629
86.8937,-5.96897
87.041,-13.811
87.1884,-16.7486
87.3357,-13.4462
87.4831,-6.70389
87.6305,-0.160285
87.7778,2.45347
87.9252,-1.67251
88.0725,-9.96759
88.2199,-18.0636
88.3673,-22.5166
88.5146,-19.8464
88.662,-14.2103
88.8094,-9.56941
88.9567,-5.59982
89.1041,-5.74078
89.2514,-7.15806
89.3988,-6.87069
89.5462,-10.3141
89.6935,-18.6788
89.8409,-28.0933
89.9882,-33.0038
90.1356,-30.7564
90.283,-26.3454
90.4303,-24.4093
90.5777,-20.3785
90.725,-10.5513
90.8724,1.02842
91.0198,7.80222
91.1671,10.3885
91.3145,16.0187
91.4619,23.0084
91.6092,26.1306
91.7566,22.8584
91.9039,16.5959
92.0513,14.0647
92.1987,12.9792
92.346,9.23953
92.4934,5.68515
92.6407,1.27415
92.7881,-7.49219
92.9355,-14.0616
93.0828,-11.3293
93.2302,-2.70822
93.3776,5.50785
93.5249,15.7486
93.6723,25.6893
93.8196,28.5826
93.967,26.9688
94.1144,24.2767
94.2617,21.3932
94.4091,18.6127
94.5564,18.0872
94.7038,22.7533
94.8512,30.2936
94.9985,35.1444
95.1459,36.1449
95.2932,37.437
95.4406,44.4177
95.588,57.6308
95.7353,72.9115
95.8827,82.9403
96.0301,85.4334
96.1774,85.4349
96.3248,84.6218
96.4721,83.6998
96.6195,82.732
96.7669,82.5605
96.9142,86.3598
97.0616,95.345
97.2089,105.866
97.3563,113.467
97.5037,116.662
97.651,115.323
97.7984,112.242
97.9457,111.047
98.0931,112.68
98.2405,114.645
98.3878,114.964
98.5352,114.586
98.6826,112.78
98.8299,107.776
98.9773,104.213
99.1246,107.495
99.272,115.614
99.4194,124.897
99.5667,134.517
99.7141,141.051
99.8614,142.138
100.009,142.466
100.156,145.998
100.304,150.48
100.451,153.051
100.598,157.181
100.746,163.752
100.893,167.602
101.04,166.421
101.188,162.794
101.335,158.774
101.482,157.959
101.63,163.623
101.777,172.011
101.924,179.266
102.072,186.491
102.219,195.902
102.367,200.815
102.514,197.48
102.661,191.911
102.809,186.865
102.956,183.807
103.103,185.146
103.251,189.876
103.398,193.418
103.545,192.137
103.693,183.111
103.84,167.079
103.988,150.359
104.135,136.31
104.282,123.553
104.43,113.961
104.577,107.942
104.724,100.809
104.872,94.7233
105.019,93.7116
105.166,90.6274
105.314,78.1582
105.461,60.4244
105.609,46.494
105.756,40.2307
105.903,36.8268
106.051,34.7686
106.198,38.5635
106.345,44.1964
106.493,41.5042
106.64,30.3419
106.787,19.4446
106.935,14.9998
107.082,14.0953
107.23,9.16049
107.377,-0.429358
107.524,-8.80188
107.672,-8.68221
107.819,-2.14468
107.966,2.02079
108.114,4.47052
108.261,7.18955
108.408,9.16713
108.556,9.14986
108.703,3.31638
108.85,-1.60813
108.998,2.77616
109.145,11.6712
109.293,18.7656
109.44,21.8663
109.587,22.7383
109.735,22.6926
109.882,21.816
110.029,20.7755
110.177,19.073
110.324,16.3429
110.471,13.3702
110.619,11.399
110.766,9.81927
110.914,7.98047
111.061,8.65461
111.208,13.2632
111.356,18.2186
111.503,23.9407
111.65,31.2594
111.798,37.809
111.945,46.0151
112.092,53.9682
112.24,57.348
112.387,58.2995
112.535,59.4825
112.682,66.8406
112.829,80.9308
112.977,93.8337
113.124,101.789
113.271,102.744
113.419,99.0184
113.566,98.3222
113.713,103.433
113.861,109.393
114.008,111.99
114.155,111.294
114.303,110.072
114.45,113.475
114.598,125.824
114.745,140.636
114.892,150.058
115.04,160.501
115.187,173.003
115.334,181.885
115.482,187.17
115.629,192.913
115.776,198.825
115.924,198.404
116.071,192.892
116.219,189.517
116.366,193.09
116.513,201.097
116.661,206.222
116.808,202.337
116.955,190.273
117.103,175.308
117.25,160.988
117.397,152.585
117.545,149.636
117.692,145.647
117.84,135.756
117.987,118.738
118.134,98.3677
118.282,80.6489
118.429,71.2313
118.576,69.4219
118.724,67.1899
118.871,60.0543
119.018,51.0912
119.166,43.2499
119.313,37.5662
119.46,31.6808
119.608,22.7011
119.755,17.7004
119.903,20.5246
120.05,23.0852
120.197,22.9975
120.345,25.2139
120.492,29.7922
120.639,34.8401
120.787,39.7782
120.934,41.3743
121.081,38.3132
121.229,32.1889
121.376,22.2719
121.524,13.7216
121.671,13.9029
121.818,18.4443
121.966,22.7273
122.113,23.8157
122.26,21.4697
122.408,20.3602
122.555,19.4126
122.702,17.4857
122.85,15.3626
122.997,12.5628
123.145,7.32691
123.292,-0.663639
123.439,-6.56177
123.587,-4.79939
123.734,4.14099
123.881,14.9099
124.029,21.0385
124.176,23.7682
124.323,29.4288
124.471,36.3527
124.618,43.8681
124.765,53.2366
124.913,62.2973
125.06,68.81
125.208,73.0454
125.355,76.0271
125.502,77.9695
125.65,80.2693
125.797,85.2205
125.944,93.3405
126.092,102.883
126.239,115.517
126.386,133.719
126.534,154.93
126.681,172.287
126.829,183.717
126.976,192.332
127.123,199.903
127.271,205.637
127.418,211.865
127.565,224.288
127.713,240.779
127.86,256.909
128.007,273.205
128.155,289.72
128.302,304.064
128.45,319.158
128.597,339.688
128.744,366.047
128.892,394.297
129.039,419.193
129.186,442.157
129.334,467.567
129.481,498.513
129.628,534.096
129.776,571.566
129.923,607.262
130.07,638.595
130.218,669.472
130.365,699.816
130.513,726.939
130.66,751.384
130.807,770.615
130.955,786.876
131.102,801.773
131.249,811.949
131.397,818.636
131.544,817.342
131.691,802.136
131.839,776.48
131.986,743.289
132.134,703.586
132.281,662.541
132.428,624.198
132.576,589.404
132.723,557.482
132.87,526.05
133.018,493.348
133.165,461.114
133.312,429.918
133.46,397.959
133.607,365.467
133.755,332.039
133.902,301.742
134.049,277.246
134.197,257.645
134.344,243.499
134.491,229.469
134.639,211.696
134.786,193.953
134.933,177.243
135.081,159.744
135.228,143.728
135.375,130.956
135.523,122.987
135.67,119.144
135.818,111.924
135.965,98.2367
136.112,83.1043
136.26,72.3669
136.407,69.5268
136.554,69.7506
136.702,68.3413
136.849,65.1299
136.996,59.5147
137.144,54.219
137.291,49.0419
137.439,45.2923
137.586,43.4703
137.733,40.8979
137.881,40.3313
138.028,44.1375
138.175,51.1711
138.323,58.5831
138.47,65.42
138.617,72.2693
138.765,77.5773
138.912,77.2747
139.06,69.8615
139.207,61.1069
139.354,56.7004
139.502,55.1708
139.649,52.4799
139.796,49.9259
139.944,50.8923
140.091,51.6183
140.238,50.0395
140.386,45.9225
140.533,36.5173
140.68,27.1222
140.828,22.9496
140.975,21.4362
141.123,21.5784
141.27,26.5229
141.417,34.4156
141.565,40.3297
141.712,42.1559
141.859,41.4406
142.007,40.699
142.154,38.7825
142.301,35.1784
142.449,31.5263
142.596,29.8073
142.744,30.0755
142.891,32.5796
143.038,37.0444
143.186,40.2052
143.333,37.8847
143.48,30.8812
143.628,28.091
143.775,31.4937
143.922,32.154
144.07,27.0081
144.217,20.4188
144.365,17.3783
144.512,19.3524
144.659,20.722
144.807,18.1264
144.954,14.3412
145.101,14.5272
145.249,21.0905
145.396,30.3354
145.543,36.2219
145.691,36.9331
145.838,38.9722
145.985,46.8151
146.133,55.6195
146.28,60.7338
146.428,60.5839
146.575,54.849
146.722,49.2289
146.87,47.8577
147.017,49.6231
147.164,52.0844
147.312,52.5455
147.459,51.3357
147.606,51.6918
147.754,51.7543
147.901,45.2801
148.049,37.1835
148.196,36.845
148.343,42.4539
148.491,47.4172
148.638,51.0784
148.785,54.2642
148.933,58.1258
149.08,63.6792
149.227,68.4609
149.375,69.3418
149.522,65.6336
149.67,61.8179
149.817,56.7474
149.964,47.6047
150.112,40.9869
150.259,40.6177
150.406,43.8811
150.554,47.1392
150.701,45.5389
150.848,39.5337
150.996,35.5824
151.143,37.4912
151.29,42.7539
151.438,48.6451
151.585,53.0691
151.733,51.2109
151.88,44.6329
152.027,40.5506
152.175,40.7207
152.322,39.6037
152.469,36.84
152.617,35.1128
152.764,31.0306
152.911,24.399
153.059,21.8377
153.206,27.0661
153.354,34.0057
153.501,35.1059
153.648,31.2373
153.796,31.1782
153.943,38.6135
154.09,48.9622
154.238,57.4867
154.385,62.7109
154.532,66.614
154.68,72.1953
154.827,77.5664
154.975,79.9941
155.122,84.6143
155.269,94.0622
155.417,105.544
155.564,117.212
155.711,127.477
155.859,132.302
156.006,133.734
156.153,136.384
156.301,136.903
156.448,135.41
156.595,135.975
156.743,135.988
156.89,130.052
157.038,120.226
157.185,112.255
157.332,109.324
157.48,108.055
157.627,103.198
157.774,94.9159
157.922,85.7561
158.069,77.1316
158.216,69.8293
158.364,63.4446
158.511,57.7496
158.659,56.2512
158.806,58.0395
158.953,58.4096
159.101,54.1743
159.248,48.1759
159.395,45.5536
159.543,47.2147
159.69,51.2101
159.837,53.2404
159.985,50.4056
160.132,42.8182
160.28,37.3498
160.427,37.5264
160.574,40.2515
160.722,43.3476
160.869,43.1293
161.016,41.2421
161.164,43.7943
161.311,49.8702
161.458,55.2473
161.606,59.0954
161.753,62.2852
161.9,63.2794
162.048,61.9923
162.195,61.8507
162.343,62.1977
162.49,60.1871
162.637,58.0172
162.785,60.339
162.932,62.748
163.079,62.4184
163.227,63.8697
163.374,71.287
163.521,81.447
163.669,83.9914
163.816,77.7193
163.964,65.7127
164.111,54.3027
164.258,46.4421
164.406,37.9393
164.553,29.1696
164.7,24.9039
164.848,27.4679
164.995,35.2153
165.142,47.047
165.29,58.6569
165.437,69.9941
165.585,84.7189
165.732,101.528
165.879,116.568
166.027,130.31
166.174,144.753
166.321,158.703
166.469,174.751
166.616,193.533
166.763,211.313
166.911,228.709
167.058,248.685
167.205,271.068
167.353,295.304
167.5,320.735
167.648,348.372
167.795,382.352
167.942,424.254
168.09,470.937
168.237,519.795
168.384,571.01
168.532,623.436
168.679,674.261
168.826,721.358
168.974,766.719
169.121,814.134
169.269,864.669
169.416,916.014
169.563,963.783
169.711,1007.23
169.858,1053.54
170.005,1108.09
170.153,1167.15
170.3,1227.36
170.447,1288.37
170.595,1349.39
170.742,1412.42
170.89,1480.72
171.037,1553.73
171.184,1628.2
171.332,1706.82
171.479,1797.43
171.626,1897.48
171.774,1997.85
171.921,2093.07
172.068,2182.7
172.216,2268.87
172.363,2347.56
172.51,2415
172.658,2470.87
172.805,2510.75
172.953,2531.5
173.1,2533.89
173.247,2516.11
173.395,2477.78
173.542,2426.15
173.689,2368.84
173.837,2306.38
173.984,2239.78
174.131,2171.61
174.279,2104.14
174.426,2038.42
174.574,1970.99
174.721,1900.91
174.868,1828.91
175.016,1758.24
175.163,1689.04
175.31,1619.56
175.458,1556.44
175.605,1501.14
175.752,1449.86
175.9,1401.12
176.047,1353.69
176.195,1306.83
176.342,1260.64
176.489,1214.49
176.637,1164.4
176.784,1111.13
176.931,1060.39
177.079,1013.82
177.226,971.226
177.373,932.261
177.521,894.337
177.668,853.519
177.816,807.66
177.963,760.175
178.11,719.441
178.258,687.753
178.405,660.045
178.552,632.739
178.7,601.908
178.847,567.166
178.994,532.642
179.142,499.595
179.289,466.508
179.436,433.645
179.584,403.443
179.731,374.551
179.879,344.206
180.026,313.492
180.173,285.798
180.321,264.137
180.468,245.549
180.615,225.263
180.763,204.545
180.91,186.678
181.057,173.863
181.205,164.774
181.352,157.488
181.5,154.252
181.647,155.086
181.794,154.561
181.942,150.338
182.089,145.314
182.236,141.711
182.384,138.798
182.531,137.058
182.678,140.089
182.826,144.177
182.973,144.947
183.121,143.701
183.268,140.432
183.415,137.057
183.563,135.723
183.71,136.126
183.857,134.627
184.005,129.325
184.152,123.579
184.299,118.553
184.447,113.551
184.594,109.097
184.741,107.182
184.889,108.27
185.036,109.917
185.184,111.2
185.331,113.847
185.478,118.264
185.626,117.744
185.773,109.342
185.92,100.319
186.068,94.7835
186.215,91.5478
186.362,90.4617
186.51,89.8966
186.657,84.6711
186.805,76.394
186.952,71.5851
187.099,71.4065
187.247,72.5664
187.394,73.2443
187.541,76.5868
187.689,85.9544
187.836,96.9671
187.983,102.327
188.131,102.166
188.278,100.275
188.426,98.7138
188.573,94.9156
188.72,89.6991
188.868,89.5967
189.015,94.7252
189.162,99.4826
189.31,103.154
189.457,108.265
189.604,110.975
189.752,109.456
189.899,108.007
190.046,107.711
190.194,106.356
190.341,103.525
190.489,98.8791
190.636,92.6381
190.783,88.3354
190.931,89.1217
191.078,93.0968
191.225,96.6748
191.373,98.2433
191.52,100.769
191.667,108.332
191.815,115.166
191.962,118.62
192.11,121.314
192.257,122.053
192.404,119.497
192.552,114.231
192.699,109.828
192.846,108.481
192.994,108.723
193.141,107.299
193.288,106.15
193.436,106.354
193.583,105.078
193.731,102.91
193.878,101.362
194.025,99.949
194.173,96.5762
194.32,89.1041
194.467,77.6082
194.615,66.9737
194.762,63.1479
194.909,66.7766
195.057,70.489
195.204,71.1167
195.351,70.8503
195.499,68.2723
195.646,63.6757
195.794,61.6667
195.941,65.3738
196.088,71.4207
196.236,77.3649
196.383,80.9969
196.53,80.4889
196.678,79.0096
196.825,79.4001
196.972,80.8428
197.12,81.2601
197.267,81.4735
197.415,82.3943
197.562,83.4749
197.709,82.7693
197.857,80.3549
198.004,78.5305
198.151,76.0637
198.299,70.1888
198.446,63.3486
198.593,60.6986
198.741,62.0915
198.888,65.2837
199.036,68.3445
199.183,70.6823
199.33,72.7442
199.478,74.5599
199.625,76.9771
199.772,79.8022
199.92,83.4183
200.067,86.3933
200.214,85.713
200.362,81.9238
200.509,77.4474
200.656,74.8638
200.804,73.927
200.951,73.3937
201.099,74.3446
201.246,74.5944
201.393,71.2536
201.541,64.6278
201.688,55.9174
201.835,49.0689
201.983,47.5967
202.13,52.1548
202.277,61.4176
202.425,72.66
202.572,82.0806
202.72,87.914
202.867,94.2646
203.014,100.864
203.162,103.728
203.309,103.263
203.456,102.371
203.604,101.41
203.751,96.0011
203.898,88.8834
204.046,84.9655
204.193,82.5216
204.341,79.6846
204.488,74.565
204.635,67.7478
204.783,64.3636
204.93,68.35
205.077,75.789
205.225,81.1791
205.372,83.2304
205.519,80.6808
205.667,74.9388
205.814,69.3233
205.961,65.0272
206.109,62.6056
206.256,61.5923
206.404,63.3138
206.551,69.1035
206.698,76.1712
206.846,83.8404
206.993,91.3655
207.14,96.3024
207.288,96.3749
207.435,90.48
207.582,84.2224
207.73,83.2837
207.877,84.605
208.025,82.7671
208.172,79.4346
208.319,76.7579
208.467,74.724
208.614,74.6332
208.761,74.34
208.909,70.7609
209.056,65.8647
209.203,63.4761
209.351,63.4102
209.498,66.7717
209.646,72.5094
209.793,74.9179
209.94,74.8813
210.088,77.599
210.235,83.6187
210.382,88.6795
210.53,90.7705
210.677,90.8124
210.824,90.546
210.972,90.6397
211.119,90.1079
211.266,89.2137
211.414,89.6321
211.561,91.6071
211.709,94.388
211.856,97.8048
212.003,97.4187
212.151,93.0965
212.298,90.3422
212.445,91.8539
212.593,97.7868
212.74,103.82
212.887,106.356
213.035,105.317
213.182,101.748
213.33,97.8695
213.477,95.5191
213.624,94.4521
213.772,95.1564
213.919,96.9631
214.066,97.5307
214.214,95.7518
214.361,92.5855
214.508,91.8119
214.656,91.7776
214.803,89.6614
214.951,88.3229
215.098,89.805
215.245,93
215.393,93.6191
215.54,88.3071
215.687,80.5513
215.835,74.5988
215.982,72.9728
216.129,77.5432
216.277,83.9354
216.424,89.759
216.571,95.278
216.719,95.5592
216.866,88.5215
217.014,81.0337
217.161,79.5615
217.308,81.7414
217.456,83.2613
217.603,83.8931
217.75,86.3547
217.898,90.547
218.045,90.6071
218.192,83.365
218.34,75.2467
218.487,74.331
218.635,79.9591
218.782,87.1725
218.929,90.8834
219.077,87.9224
219.224,81.5942
219.371,78.0521
219.519,79.4767
219.666,81.9174
219.813,82.404
219.961,81.8395
220.108,83.0782
220.256,88.4324
220.403,96.5667
220.55,105.33
220.698,110.615
220.845,110.688
220.992,108.92
221.14,107.778
221.287,105.856
221.434,99.7207
221.582,93.2097
221.729,92.1953
221.876,91.2647
222.024,85.5266
222.171,79.7411
222.319,76.5005
222.466,73.2034
222.613,67.2851
222.761,59.8588
222.908,56.4105
223.055,58.2634
223.203,60.8269
223.35,63.0555
223.497,66.081
223.645,68.5569
223.792,68.2106
223.94,67.4545
224.087,69.354
224.234,71.1838
224.382,72.6858
224.529,75.0407
224.676,76.7224
224.824,75.8179
224.971,74.4835
225.118,76.6081
225.266,81.3928
225.413,86.3197
225.561,90.3981
225.708,90.3992
225.855,86.3094
226.003,85.5186
226.15,87.5217
226.297,87.7633
226.445,84.4045
226.592,78.4605
226.739,77.0602
226.887,82.5853
227.034,87.9343
227.181,88.0571
227.329,85.4786
227.476,81.4678
227.624,78.1388
227.771,78.5315
227.918,80.7378
228.066,81.8699
228.213,79.6851
228.36,76.5902
228.508,79.5113
228.655,87.2208
228.802,90.3209
228.95,85.4313
229.097,78.4237
229.245,73.6966
229.392,71.669
229.539,73.7906
229.687,77.3033
229.834,76.8444
229.981,74.6092
230.129,76.3111
230.276,80.788
230.423,82.8191
230.571,81.5185
230.718,81.2806
230.866,82.5161
231.013,84.3827
231.16,90.317
231.308,99.4842
231.455,107.162
231.602,110.007
231.75,108.833
231.897,105.76
232.044,101.703
232.192,96.7969
232.339,91.7943
232.486,87.0553
232.634,85.1262
232.781,88.1232
232.929,91.3479
233.076,92.9083
233.223,93.3417
233.371,93.302
233.518,93.9973
233.665,95.4749
233.813,98.4389
233.96,101.355
234.107,102.278
234.255,102.236
234.402,102.742
234.55,105.704
234.697,106.817
234.844,101.049
234.992,95.0562
235.139,93.8004
235.286,95.8252
235.434,96.4061
235.581,92.1261
235.728,85.1921
235.876,78.3081
236.023,73.8329
236.171,74.6925
236.318,80.8125
236.465,87.8948
236.613,91.5812
236.76,90.4763
236.907,88.8084
237.055,87.7271
237.202,84.3995
237.349,79.8707
237.497,78.6424
237.644,81.0007
237.791,81.7918
237.939,80.1109
238.086,78.3399
238.234,78.3306
238.381,77.9267
238.528,76.6817
238.676,78.7414
238.823,84.2375
238.97,91.2615
239.118,98.6113
239.265,102.587
239.412,100.937
239.56,97.1347
239.707,94.7677
239.855,92.9674
240.002,88.8228
240.149,84.0829
240.297,81.8576
240.444,80.2931
240.591,77.4981
240.739,74.6687
240.886,72.568
241.033,71.1935
241.181,71.4438
241.328,73.5479
241.476,76.7676
241.623,78.3548
241.77,76.325
241.918,74.1611
242.065,76.6964
242.212,84.9232
242.36,93.0702
242.507,93.2326
242.654,88.7052
242.802,86.571
242.949,86.6111
243.096,90.2659
243.244,96.0723
243.391,98.6943
243.539,98.0866
243.686,95.7913
243.833,93.7276
243.981,90.4178
244.128,81.3926
244.275,70.7864
244.423,65.4483
244.57,64.5857
244.717,68.4536
244.865,74.0344
245.012,76.3675
245.16,77.9233
245.307,79.3535
245.454,83.3482
245.602,91.5093
245.749,101.283
245.896,110.658
246.044,114.411
246.191,109.999
246.338,102.915
246.486,100.386
246.633,100.26
246.781,96.1951
246.928,88.6247
247.075,82.3547
247.223,79.6217
247.37,78.7314
247.517,77.0101
247.665,75.295
247.812,73.0131
247.959,65.3573
248.107,54.5156
248.254,44.2702
248.402,35.383
248.549,33.2825
248.696,40.0546
248.844,50.8867
248.991,63.4613
249.138,75.2967
249.286,85.4439
249.433,95.547
249.58,103.315
249.728,106.183
249.875,105.047
250.022,102.585
250.17,102.505
250.317,107.315
250.465,111.413
250.612,111.987
250.759,112.021
250.907,111.028
251.054,110.801
251.201,113.379
251.349,114.662
251.496,109.617
251.643,102.045
251.791,98.2018
251.938,95.5267
252.086,90.0149
252.233,85.1692
252.38,82.8934
252.528,83.0771
252.675,85.7729
252.822,88.7631
252.97,93.6299
253.117,98.1925
253.264,99.0302
253.412,96.487
253.559,93.6628
253.707,93.6996
253.854,93.5568
254.001,91.7195
254.149,87.4321
254.296,80.0201
254.443,71.4428
254.591,64.6906
254.738,58.9728
254.885,53.1271
255.033,52.7155
255.18,56.9052
255.327,62.5098
255.475,71.446
255.622,81.3813
255.77,87.0305
255.917,85.6268
256.064,81.0482
256.212,78.4755
256.359,78.3005
256.506,78.6928
256.654,78.0793
256.801,78.5903
256.948,81.5072
257.096,85.7243
257.243,88.7228
257.391,88.5567
257.538,89.3311
257.685,90.8486
257.833,90.564
257.98,89.82
258.127,87.3815
258.275,81.5484
258.422,73.889
258.569,65.492
258.717,55.3611
258.864,47.5009
259.012,42.8893
259.159,36.2853
259.306,26.1302
259.454,14.8465
259.601,6.7442
259.748,1.80191
259.896,-4.28884
260.043,-13.4705
260.19,-24.0878
260.338,-35.6122
260.485,-48.4488
260.632,-60.9882
260.78,-70.8996
260.927,-76.1683