ppm,intensity
-40.7211,62.3402
-40.5738,68.4613
-40.4264,69.7796
-40.279,67.3577
-40.1317,62.6336
-39.9843,58.2288
-39.8369,57.2311
-39.6896,62.3152
-39.5422,69.0737
-39.3949,72.7762
-39.2475,75.8957
-39.1001,77.6814
-38.9528,73.2485
-38.8054,62.3909
-38.6581,54.3248
-38.5107,55.7842
-38.3633,62.1481
-38.216,71.0461
-38.0686,80.214
-37.9213,86.0384
-37.7739,91.5716
-37.6265,97.8302
-37.4792,103.105
-37.3318,105.603
-37.1844,101.781
-37.0371,96.0957
-36.8897,90.3581
-36.7424,82.9915
-36.595,79.8879
-36.4476,80.8447
-36.3003,82.3678
-36.1529,82.3622
-36.0056,78.8474
-35.8582,72.2725
-35.7108,67.1704
-35.5635,68.4494
-35.4161,73.5272
-35.2688,76.8429
-35.1214,77.7517
-34.974,77.1256
-34.8267,76.3983
-34.6793,79.8927
-34.5319,83.933
-34.3846,83.1092
-34.2372,80.1623
-34.0899,81.0064
-33.9425,85.6437
-33.7951,89.0393
-33.6478,88.7747
-33.5004,87.4699
-33.3531,91.8122
-33.2057,99.2837
-33.0583,104.918
-32.911,109.416
-32.7636,114.202
-32.6162,118.148
-32.4689,119.697
-32.3215,122.018
-32.1742,126.305
-32.0268,132.632
-31.8794,140.605
-31.7321,148.186
-31.5847,156.113
-31.4374,164.398
-31.29,168.591
-31.1426,167.359
-30.9953,162.686
-30.8479,156.757
-30.7006,152.948
-30.5532,152.29
-30.4058,153.645
-30.2585,156.399
-30.1111,158.875
-29.9637,157.752
-29.8164,152.248
-29.669,146.339
-29.5217,148.65
-29.3743,158.729
-29.2269,169.571
-29.0796,175.983
-28.9322,174.377
-28.7849,169.822
-28.6375,164.98
-28.4901,161.547
-28.3428,161.355
-28.1954,159.638
-28.0481,154.695
-27.9007,148.069
-27.7533,141.056
-27.606,138.252
-27.4586,139.729
-27.3112,140.591
-27.1639,144.72
-27.0165,154.859
-26.8692,165.474
-26.7218,174.171
-26.5744,182.647
-26.4271,193.278
-26.2797,206.25
-26.1324,214.527
-25.985,213.315
-25.8376,206.075
-25.6903,195.613
-25.5429,184.511
-25.3956,177.599
-25.2482,178.602
-25.1008,184.724
-24.9535,187.224
-24.8061,182.208
-24.6587,175.31
-24.5114,170.973
-24.364,167.94
-24.2167,162.23
-24.0693,149.59
-23.9219,135.464
-23.7746,126.117
-23.6272,119.579
-23.4799,116.073
-23.3325,115.249
-23.1851,117.272
-23.0378,120.349
-22.8904,120.845
-22.7431,119.319
-22.5957,114.682
-22.4483,109.358
-22.301,105.066
-22.1536,102.3
-22.0062,101.85
-21.8589,103.906
-21.7115,110.537
-21.5642,119.636
-21.4168,123.763
-21.2694,115.356
-21.1221,101.917
-20.9747,93.6154
-20.8274,88.657
-20.68,83.5342
-20.5326,78.1448
-20.3853,77.0579
-20.2379,82.3335
-20.0906,88.3205
-19.9432,87.2231
-19.7958,78
-19.6485,67.3793
-19.5011,60.9495
-19.3537,61.0324
-19.2064,66.9572
-19.059,73.1278
-18.9117,76.3741
-18.7643,73.3208
-18.6169,64.1536
-18.4696,55.9816
-18.3222,52.7043
-18.1749,54.1954
-18.0275,55.7922
-17.8801,57.2713
-17.7328,60.722
-17.5854,64.0364
-17.438,68.032
-17.2907,75.4157
-17.1433,84.702
-16.996,86.8474
-16.8486,78.6001
-16.7012,69.6092
-16.5539,66.6512
-16.4065,68.2493
-16.2592,71.1688
-16.1118,77.5729
-15.9644,88.0782
-15.8171,97.5556
-15.6697,102.779
-15.5224,102.428
-15.375,103.812
-15.2276,110.559
-15.0803,115.557
-14.9329,115.014
-14.7855,110.792
-14.6382,109.626
-14.4908,111.636
-14.3435,109.252
-14.1961,104.763
-14.0487,105.646
-13.9014,107.136
-13.754,101.334
-13.6067,89.0846
-13.4593,77.2066
-13.3119,67.8299
-13.1646,57.2519
-13.0172,49.7703
-12.8699,50.2014
-12.7225,55.6537
-12.5751,62.4034
-12.4278,65.0358
-12.2804,60.9728
-12.133,53.8008
-11.9857,49.2478
-11.8383,53.4942
-11.691,62.8384
-11.5436,68.91
-11.3962,71.716
-11.2489,72.37
-11.1015,69.713
-10.9542,67.6327
-10.8068,68.4554
-10.6594,68.9654
-10.5121,70.6106
-10.3647,71.5595
-10.2174,67.9409
-10.07,65.1817
-9.92263,68.5871
-9.77527,75.5969
-9.62791,78.1384
-9.48055,71.7371
-9.33318,61.8885
-9.18582,56.0486
-9.03846,57.9713
-8.8911,64.4965
-8.74374,70.7693
-8.59638,79.2166
-8.44902,87.5296
-8.30166,89.2289
-8.1543,84.7995
-8.00693,80.8544
-7.85957,82.2578
-7.71221,84.1855
-7.56485,80.8009
-7.41749,73.0292
-7.27013,65.5943
-7.12277,65.1289
-6.97541,71.3483
-6.82804,77.4981
-6.68068,83.0108
-6.53332,87.8027
-6.38596,91.2626
-6.2386,94.1552
-6.09124,92.0186
-5.94388,85.0455
-5.79652,81.0584
-5.64916,84.1725
-5.50179,89.2253
-5.35443,87.6544
-5.20707,82.9355
-5.05971,83.3921
-4.91235,88.5196
-4.76499,96.5354
-4.61763,104.257
-4.47027,107.323
-4.32291,104.526
-4.17554,96.1277
-4.02818,87.0987
-3.88082,85.6901
-3.73346,88.9444
-3.5861,88.0538
-3.43874,84.9847
-3.29138,84.4026
-3.14402,87.0178
-2.99665,89.4004
-2.84929,87.37
-2.70193,81.722
-2.55457,78.601
-2.40721,84.1567
-2.25985,94.314
-2.11249,100.341
-1.96513,98.0739
-1.81777,89.732
-1.6704,80.8381
-1.52304,74.3563
-1.37568,71.4704
-1.22832,73.2493
-1.08096,81.3553
-0.933598,92.9626
-0.786237,101.156
-0.638876,100.732
-0.491515,92.1846
-0.344153,82.1177
-0.196792,72.64
-0.0494311,67.8945
0.0979301,72.1976
0.245291,79.8248
0.392652,85.5459
0.540014,85.826
0.687375,83.8045
0.834736,85.9822
0.982097,90.8662
1.12946,95.205
1.27682,97.2937
1.42418,99.0721
1.57154,106.445
1.7189,119.383
1.86626,127.453
2.01363,126.929
2.16099,124.833
2.30835,120.739
2.45571,111.103
2.60307,98.4343
2.75043,87.3103
2.89779,79.8731
3.04515,75.0487
3.19251,73.5377
3.33988,77.7976
3.48724,85.6155
3.6346,91.132
3.78196,94.3968
3.92932,100.03
4.07668,108.41
4.22404,116.58
4.3714,126.603
4.51877,139.768
4.66613,148.414
4.81349,147.173
4.96085,142.487
5.10821,142.835
5.25557,145.677
5.40293,146.973
5.55029,150.209
5.69765,157.9
5.84502,164.654
5.99238,167.358
6.13974,166.34
6.2871,158.821
6.43446,148.07
6.58182,138.725
6.72918,129.492
6.87654,119.912
7.02391,115.442
7.17127,118.17
7.31863,127.605
7.46599,142.163
7.61335,153.591
7.76071,157.892
7.90807,155.341
8.05543,150.66
8.20279,151.007
8.35016,154.894
8.49752,156.474
8.64488,154.712
8.79224,152.496
8.9396,152.427
9.08696,154.71
9.23432,159.172
9.38168,165.095
9.52904,170.316
9.67641,172.608
9.82377,168.721
9.97113,162.55
10.1185,161.579
10.2659,168.138
10.4132,178.099
10.5606,189.545
10.7079,205.168
10.8553,221.278
11.0027,233.553
11.15,239.747
11.2974,243.775
11.4447,251.724
11.5921,262.965
11.7395,273.257
11.8868,281.429
12.0342,289.081
12.1815,295.833
12.3289,304.827
12.4763,314.811
12.6236,323.221
12.771,332.872
12.9184,346.986
13.0657,368.608
13.2131,394.933
13.3604,422.825
13.5078,453.397
13.6552,487.368
13.8025,526.144
13.9499,570.527
14.0972,618.261
14.2446,668.433
14.392,722.946
14.5393,784.099
14.6867,852.433
14.834,928.39
14.9814,1012.66
15.1288,1102.6
15.2761,1191.66
15.4235,1275.23
15.5709,1353.42
15.7182,1426.94
15.8656,1500.78
16.0129,1573.37
16.1603,1638.83
16.3077,1699.16
16.455,1751.86
16.6024,1793.96
16.7497,1828.27
16.8971,1858.14
17.0445,1884.68
17.1918,1909.93
17.3392,1937.1
17.4865,1966.77
17.6339,2000.14
17.7813,2037.43
17.9286,2077.83
18.076,2122.44
18.2234,2173.22
18.3707,2231.46
18.5181,2303.1
18.6654,2397.23
18.8128,2514.01
18.9602,2646.69
19.1075,2796.98
19.2549,2975.56
19.4022,3184.77
19.5496,3419.32
19.697,3678.27
19.8443,3960.7
19.9917,4259.63
20.139,4568.44
20.2864,4878.63
20.4338,5176.09
20.5811,5450.77
20.7285,5692.13
20.8759,5888.71
21.0232,6038.69
21.1706,6144.44
21.3179,6210.85
21.4653,6240.19
21.6127,6228.13
21.76,6176.17
21.9074,6091.07
22.0547,5980.4
22.2021,5855.35
22.3495,5737.08
22.4968,5642.19
22.6442,5565.79
22.7916,5502.59
22.9389,5459.62
23.0863,5443.81
23.2336,5452.92
23.381,5483.37
23.5284,5539.53
23.6757,5629.99
23.8231,5753.98
23.9704,5903.75
24.1178,6076.63
24.2652,6269.69
24.4125,6478.03
24.5599,6695.72
24.7072,6915.52
24.8546,7128.52
25.002,7324.38
25.1493,7490.1
25.2967,7609.15
25.4441,7667.07
25.5914,7654.31
25.7388,7566.23
25.8861,7408.01
26.0335,7196.32
26.1809,6952.6
26.3282,6695.51
26.4756,6434.11
26.6229,6177.55
26.7703,5939.77
26.9177,5739.94
27.065,5592.15
27.2124,5491.32
27.3597,5430.7
27.5071,5406.29
27.6545,5414.17
27.8018,5456.78
27.9492,5536.53
28.0966,5647.5
28.2439,5786.78
28.3913,5957.44
28.5386,6153.84
28.686,6368.37
28.8334,6596.14
28.9807,6830.94
29.1281,7068.47
29.2754,7305.69
29.4228,7540.21
29.5702,7768.52
29.7175,7982.22
29.8649,8169.79
30.0122,8322.79
30.1596,8441.7
30.307,8528.71
30.4543,8582.93
30.6017,8602.07
30.7491,8586.42
30.8964,8544.3
31.0438,8483.86
31.1911,8404.92
31.3385,8303.93
31.4859,8183.43
31.6332,8048.94
31.7806,7899.83
31.9279,7732.01
32.0753,7550.17
32.2227,7361.4
32.37,7163.57
32.5174,6953.07
32.6647,6728.86
32.8121,6491.21
32.9595,6243.15
33.1068,5987.65
33.2542,5725.04
33.4016,5459.97
33.5489,5196.94
33.6963,4937.74
33.8436,4679.95
33.991,4421.45
34.1384,4173.36
34.2857,3941.23
34.4331,3721.04
34.5804,3509.74
34.7278,3303.7
34.8752,3104.26
35.0225,2916.85
35.1699,2745.58
35.3172,2592.87
35.4646,2460.7
35.612,2344.78
35.7593,2233
35.9067,2124
36.0541,2026.54
36.2014,1943.02
36.3488,1866.39
36.4961,1791.11
36.6435,1724.31
36.7909,1668.86
36.9382,1623.06
37.0856,1586.49
37.2329,1553.69
37.3803,1521.99
37.5277,1491.78
37.675,1464.31
37.8224,1438.09
37.9698,1410.95
38.1171,1383.2
38.2645,1358.17
38.4118,1339.26
38.5592,1324.08
38.7066,1309.31
38.8539,1292.95
39.0013,1276.71
39.1486,1263.58
39.296,1251.58
39.4434,1239.47
39.5907,1231.56
39.7381,1233.19
39.8854,1247.89
40.0328,1275.08
40.1802,1310.57
40.3275,1352.05
40.4749,1397.91
40.6223,1450.99
40.7696,1519.59
40.917,1604.08
41.0643,1701.03
41.2117,1809.47
41.3591,1922.26
41.5064,2027.99
41.6538,2124.69
41.8011,2220.27
41.9485,2312.95
42.0959,2394.71
42.2432,2464.68
42.3906,2522.16
42.5379,2565
42.6853,2589.51
42.8327,2589.63
42.98,2567.16
43.1274,2530.36
43.2748,2481.07
43.4221,2417.76
43.5695,2342.3
43.7168,2257.06
43.8642,2163.94
44.0116,2071.04
44.1589,1983.32
44.3063,1892.17
44.4536,1791.93
44.601,1691.02
44.7484,1595.96
44.8957,1506.52
45.0431,1424.28
45.1904,1347.81
45.3378,1282.03
45.4852,1232.96
45.6325,1199.26
45.7799,1180.71
45.9273,1173.93
46.0746,1175.69
46.222,1185.39
46.3693,1203.27
46.5167,1228.02
46.6641,1257.51
46.8114,1289.21
46.9588,1322.81
47.1061,1361.09
47.2535,1401.04
47.4009,1435.07
47.5482,1465.36
47.6956,1499.96
47.8429,1533.06
47.9903,1561.01
48.1377,1588.56
48.285,1619.61
48.4324,1661.31
48.5798,1717.87
48.7271,1788.8
48.8745,1868.63
49.0218,1951.85
49.1692,2035.08
49.3166,2111.24
49.4639,2176.16
49.6113,2230.07
49.7586,2269.49
49.906,2296.22
50.0534,2317.48
50.2007,2334.13
50.3481,2351.22
50.4955,2379.95
50.6428,2425.78
50.7902,2490.74
50.9375,2577.52
51.0849,2687.8
51.2323,2820.75
51.3796,2970.65
51.527,3130.98
51.6743,3298.99
51.8217,3471.93
51.9691,3646.46
52.1164,3817.11
52.2638,3975.85
52.4111,4117.64
52.5585,4238.02
52.7059,4333.61
52.8532,4402.79
53.0006,4445.65
53.148,4467
53.2953,4467.5
53.4427,4449.27
53.59,4421.42
53.7374,4388.58
53.8848,4348
54.0321,4295.64
54.1795,4230.78
54.3268,4151.74
54.4742,4061.99
54.6216,3971.42
54.7689,3885.58
54.9163,3802.89
55.0636,3716.22
55.211,3620.73
55.3584,3514.44
55.5057,3396.48
55.6531,3270.84
55.8005,3140.26
55.9478,3004.86
56.0952,2867.34
56.2425,2733.12
56.3899,2603.42
56.5373,2474.43
56.6846,2349.29
56.832,2233.64
56.9793,2127.93
57.1267,2032.8
57.2741,1948.59
57.4214,1871
57.5688,1796.13
57.7161,1730.64
57.8635,1683.54
58.0109,1654.55
58.1582,1637.12
58.3056,1633.12
58.453,1655.38
58.6003,1705.23
58.7477,1778.3
58.895,1877.13
59.0424,2001.59
59.1898,2148.27
59.3371,2316.44
59.4845,2504.61
59.6318,2707.11
59.7792,2924.43
59.9266,3150.39
60.0739,3368.96
60.2213,3572.53
60.3686,3757.19
60.516,3921
60.6634,4063.01
60.8107,4178.79
60.9581,4263.21
61.1055,4313.59
61.2528,4333.68
61.4002,4331.07
61.5475,4306.78
61.6949,4256.82
61.8423,4174.72
61.9896,4058.69
62.137,3919.84
62.2843,3767.84
62.4317,3602.96
62.5791,3426.59
62.7264,3246.37
62.8738,3066.59
63.0211,2890.43
63.1685,2725.37
63.3159,2575.38
63.4632,2437.26
63.6106,2308.16
63.758,2188.58
63.9053,2076.83
64.0527,1975.86
64.2,1887.3
64.3474,1806.61
64.4948,1730.44
64.6421,1656.14
64.7895,1582.84
64.9368,1507.11
65.0842,1423.08
65.2316,1333.44
65.3789,1249.95
65.5263,1173.13
65.6737,1097.89
65.821,1028.49
65.9684,963.132
66.1157,896.273
66.2631,827.646
66.4105,763.669
66.5578,708.29
66.7052,658.287
66.8525,611.034
66.9999,565.659
67.1473,523.886
67.2946,480.489
67.442,439.645
67.5893,412.703
67.7367,395.387
67.8841,382.342
68.0314,370.012
68.1788,354.988
68.3262,337.565
68.4735,320.32
68.6209,302.73
68.7682,280.732
68.9156,253.154
69.063,225.239
69.2103,203.541
69.3577,188.706
69.505,178.255
69.6524,165.845
69.7998,151.864
69.9471,144.524
70.0945,142.887
70.2418,145.735
70.3892,155.588
70.5366,166.071
70.6839,169.711
70.8313,164.386
70.9787,153.114
71.126,141.618
71.2734,132.417
71.4207,126.947
71.5681,123.092
71.7155,119.131
71.8628,118.263
72.0102,120.7
72.1575,125.074
72.3049,130.822
72.4523,134.411
72.5996,135.644
72.747,137.673
72.8943,139.857
73.0417,140.114
73.1891,140.168
73.3364,139.577
73.4838,136.842
73.6312,137.303
73.7785,143.561
73.9259,151.179
74.0732,151.261
74.2206,139.765
74.368,123.078
74.5153,109.511
74.6627,101.855
74.81,99.5474
74.9574,99.3176
75.1048,94.3458
75.2521,86.3185
75.3995,81.1224
75.5468,77.3541
75.6942,72.6719
75.8416,69.9018
75.9889,70.0766
76.1363,73.3692
76.2837,80.2274
76.431,88.9558
76.5784,98.1831
76.7257,105.383
76.8731,110.174
77.0205,113.199
77.1678,112.324
77.3152,103.783
77.4625,93.2488
77.6099,87.2523
77.7573,80.6872
77.9046,71.1376
78.052,64.2417
78.1993,63.7051
78.3467,67.6684
78.4941,73.3223
78.6414,74.6257
78.7888,72.1059
78.9362,69.0222
79.0835,61.9095
79.2309,53.0345
79.3782,46.246
79.5256,42.3481
79.673,41.6578
79.8203,42.3288
79.9677,44.2229
80.115,47.5497
80.2624,51.9187
80.4098,56.4569
80.5571,56.7435
80.7045,54.7027
80.8519,54.2814
80.9992,55.9747
81.1466,58.0927
81.2939,54.6517
81.4413,46.0355
81.5887,39.7549
81.736,40.7237
81.8834,44.2541
82.0307,47.0143
82.1781,50.3169
82.3255,55.4049
82.4728,65.2857
82.6202,74.0197
82.7675,72.3227
82.9149,62.9144
83.0623,53.6211
83.2096,47.2183
83.357,46.8976
83.5044,52.2734
83.6517,57.2334
83.7991,60.2439
83.9464,61.0239
84.0938,59.2053
84.2412,56.4853
84.3885,52.0744
84.5359,46.1403
84.6832,41.6776
84.8306,39.0949
84.978,35.435
85.1253,32.3472
85.2727,34.7849
85.42,38.1726
85.5674,38.5504
85.7148,35.2835
85.8621,27.5746
86.0095,23.3587
86.1569,26.63
86.3042,31.4169
86.4516,34.3926
86.5989,36.0042
86.7463,34.8499
86.8937,31.525
87.041,32.6419
87.1884,39.7571
87.3357,44.263
87.4831,46.1642
87.6305,49.8567
87.7778,50.9709
87.9252,48.6874
88.0725,45.3654
88.2199,40.6889
88.3673,37.8037
88.5146,38.6483
88.662,37.2976
88.8094,30.6194
88.9567,20.3083
89.1041,13.6148
89.2514,17.1985
89.3988,27.5595
89.5462,36.2124
89.6935,38.9887
89.8409,40.4746
89.9882,42.3228
90.1356,44.985
90.283,49.8439
90.4303,56.1394
90.5777,58.9715
90.725,53.3903
90.8724,43.7203
91.0198,37.3294
91.1671,36.3894
91.3145,36.8024
91.4619,38.6209
91.6092,42.8036
91.7566,46.9798
91.9039,51.7891
92.0513,58.852
92.1987,64.8658
92.346,68.5734
92.4934,74.7652
92.6407,80.8367
92.7881,82.0991
92.9355,79.6655
93.0828,75.8185
93.2302,71.8459
93.3776,70.1234
93.5249,68.1792
93.6723,61.1483
93.8196,54.121
93.967,51.4722
94.1144,52.4927
94.2617,56.3882
94.4091,59.3311
94.5564,55.501
94.7038,45.9012
94.8512,41.5528
94.9985,47.6489
95.1459,57.8793
95.2932,66.9262
95.4406,72.6883
95.588,76.6271
95.7353,82.3697
95.8827,85.6752
96.0301,84.0154
96.1774,80.9688
96.3248,78.4894
96.4721,79.9978
96.6195,84.553
96.7669,86.2142
96.9142,81.8768
97.0616,77.1195
97.2089,76.3344
97.3563,78.4023
97.5037,82.2473
97.651,79.782
97.7984,66.9364
97.9457,52.7419
98.0931,48.686
98.2405,54.9464
98.3878,64.7015
98.5352,74.0374
98.6826,84.4221
98.8299,94.3144
98.9773,98.9185
99.1246,102.301
99.272,104.242
99.4194,99.3848
99.5667,86.6319
99.7141,74.4199
99.8614,71.3879
100.009,76.8925
100.156,85.3108
100.304,92.8951
100.451,101.912
100.598,109.483
100.746,113.87
100.893,117.242
101.04,122.514
101.188,129.977
101.335,135.369
101.482,138.688
101.63,144.717
101.777,153.653
101.924,160.28
102.072,160.556
102.219,154.982
102.367,150.144
102.514,148.189
102.661,147.999
102.809,147.504
102.956,146.361
103.103,146.467
103.251,146.127
103.398,144.323
103.545,143.039
103.693,139.739
103.84,128.36
103.988,110.634
104.135,92.6096
104.282,81.2324
104.43,74.9646
104.577,68.4421
104.724,60.7508
104.872,53.4392
105.019,48.401
105.166,44.1846
105.314,38.7721
105.461,32.5125
105.609,28.7181
105.756,24.6147
105.903,23.0724
106.051,28.5646
106.198,36.8267
106.345,42.6654
106.493,43.6334
106.64,42.431
106.787,39.6934
106.935,38.6238
107.082,42.7067
107.23,51.1305
107.377,57.8183
107.524,54.4575
107.672,44.0026
107.819,35.3818
107.966,28.9266
108.114,22.4822
108.261,16.5198
108.408,10.875
108.556,9.30133
108.703,11.9984
108.85,14.7723
108.998,15.4088
109.145,11.7354
109.293,5.32575
109.44,0.704858
109.587,-0.677078
109.735,1.03299
109.882,5.22336
110.029,10.8921
110.177,15.5341
110.324,16.1837
110.471,13.0445
110.619,9.82391
110.766,10.8529
110.914,11.8467
111.061,8.12807
111.208,5.35274
111.356,9.43999
111.503,18.0825
111.65,26.147
111.798,32.796
111.945,39.7664
112.092,46.037
112.24,48.6752
112.387,49.8454
112.535,51.2694
112.682,49.5167
112.829,48.8297
112.977,57.3371
113.124,68.9494
113.271,75.8506
113.419,79.5378
113.566,80.9958
113.713,80.4488
113.861,80.8649
114.008,86.297
114.155,97.6884
114.303,113.77
114.45,132.158
114.598,149.319
114.745,162.647
114.892,170.4
115.04,173.017
115.187,173.324
115.334,174.763
115.482,183.045
115.629,196.447
115.776,203.95
115.924,201.126
116.071,190.651
116.219,177.229
116.366,168.941
116.513,169.533
116.661,169.979
116.808,164.641
116.955,159.29
117.103,157.255
117.25,156.115
117.397,154.207
117.545,149.286
117.692,141.074
117.84,134.951
117.987,129.085
118.134,120.541
118.282,113.997
118.429,111.301
118.576,106.075
118.724,91.71
118.871,71.5652
119.018,55.1496
119.166,48.9224
119.313,53.1906
119.46,62.1343
119.608,66.9177
119.755,65.0516
119.903,59.4807
120.05,54.9721
120.197,53.0202
120.345,49.6364
120.492,43.9375
120.639,38.5069
120.787,35.3616
120.934,35.5297
121.081,41.2668
121.229,50.6755
121.376,60.0386
121.524,70.8008
121.671,81.1212
121.818,87.1112
121.966,87.1405
122.113,81.1515
122.26,75.3193
122.408,72.7122
122.555,69.9995
122.702,66.5571
122.85,64.3023
122.997,65.7944
123.145,69.142
123.292,69.9928
123.439,66.2105
123.587,59.7378
123.734,55.2522
123.881,54.4402
124.029,59.6523
124.176,71.5587
124.323,84.3865
124.471,90.2918
124.618,88.3834
124.765,84.929
124.913,81.171
125.06,79.7492
125.208,87.2638
125.355,100.226
125.502,111.043
125.65,119.951
125.797,127.792
125.944,134.869
126.092,147.248
126.239,164.285
126.386,179.579
126.534,192.559
126.681,203.68
126.829,213.141
126.976,223.394
127.123,234.703
127.271,248.685
127.418,266.112
127.565,280.354
127.713,293.376
127.86,309.481
128.007,326.124
128.155,345.349
128.302,368.574
128.45,394.972
128.597,425.403
128.744,458.015
128.892,486.669
129.039,506.119
129.186,519.911
129.334,538.716
129.481,564.135
129.628,589.307
129.776,614.089
129.923,641.476
130.07,672.434
130.218,708.159
130.365,745.043
130.513,777.242
130.66,799.422
130.807,809.855
130.955,813.472
131.102,810.808
131.249,799.96
131.397,785.32
131.544,770.483
131.691,751.365
131.839,727.352
131.986,701.287
132.134,676.009
132.281,651.139
132.428,619.784
132.576,583.36
132.723,545.068
132.87,503.561
133.018,459.608
133.165,416.958
133.312,378.182
133.46,343.955
133.607,317.006
133.755,299.218
133.902,285.882
134.049,269.121
134.197,249.21
134.344,231.887
134.491,220.133
134.639,207.05
134.786,188.129
134.933,170.666
135.081,159.459
135.228,151.923
135.375,142.037
135.523,129.521
135.67,119.127
135.818,111.138
135.965,106.017
136.112,106.518
136.26,108.229
136.407,104.11
136.554,97.0064
136.702,93.3992
136.849,90.5418
136.996,85.1009
137.144,80.8611
137.291,81.949
137.439,85.6579
137.586,86.9145
137.733,89.5245
137.881,94.1399
138.028,96.3905
138.175,96.9588
138.323,94.4976
138.47,87.2131
138.617,78.4086
138.765,72.7726
138.912,72.1117
139.06,74.64
139.207,74.8822
139.354,67.9352
139.502,59.8567
139.649,59.3768
139.796,65.5455
139.944,73.0639
140.091,78.2133
140.238,79.1156
140.386,75.3436
140.533,70.4311
140.68,66.4524
140.828,62.9168
140.975,58.9716
141.123,57.0628
141.27,58.3594
141.417,57.735
141.565,55.4802
141.712,52.473
141.859,50.2856
142.007,49.3384
142.154,49.161
142.301,52.7062
142.449,55.9201
142.596,55.4672
142.744,52.0943
142.891,50.3025
143.038,53.5086
143.186,57.0066
143.333,59.628
143.48,62.3192
143.628,63.3945
143.775,60.8116
143.922,53.7099
144.07,44.6107
144.217,37.6529
144.365,34.0018
144.512,30.8755
144.659,29.7215
144.807,32.9848
144.954,39.3179
145.101,45.2593
145.249,50.9174
145.396,61.0082
145.543,73.0181
145.691,79.4692
145.838,75.0443
145.985,63.3946
146.133,54.1632
146.28,51.7977
146.428,54.3985
146.575,58.0894
146.722,61.0879
146.87,61.7397
147.017,59.8824
147.164,56.4251
147.312,51.088
147.459,46.054
147.606,42.6939
147.754,37.8054
147.901,30.4235
148.049,23.7899
148.196,22.5631
148.343,28.5603
148.491,39.4398
148.638,50.824
148.785,59.1926
148.933,64.0415
149.08,64.4913
149.227,60.4101
149.375,55.6361
149.522,55.0689
149.67,55.3534
149.817,53.152
149.964,50.6741
150.112,48.5025
150.259,50.8604
150.406,58.0966
150.554,62.6505
150.701,62.2424
150.848,62.4178
150.996,68.5761
151.143,76.9524
151.29,81.4728
151.438,84.7341
151.585,85.9036
151.733,84.2524
151.88,83.009
152.027,78.6802
152.175,75.3549
152.322,77.6874
152.469,76.1929
152.617,69.2434
152.764,66.3225
152.911,69.4426
153.059,73.1399
153.206,76.4983
153.354,84.9746
153.501,96.7824
153.648,103.872
153.796,105.842
153.943,107.093
154.09,107.491
154.238,108.021
154.385,111.471
154.532,117.418
154.68,126.269
154.827,137.787
154.975,152.439
155.122,168.901
155.269,184.198
155.417,196.707
155.564,205.549
155.711,211.895
155.859,215.582
156.006,217.321
156.153,219.036
156.301,221.246
156.448,223.81
156.595,227.236
156.743,228.722
156.89,225.526
157.038,219.674
157.185,209.415
157.332,193.712
157.48,178.013
157.627,162.051
157.774,142.315
157.922,124.641
158.069,113.817
158.216,105.457
158.364,95.288
158.511,85.4114
158.659,78.47
158.806,75.1615
158.953,76.8467
159.101,81.2411
159.248,85.0647
159.395,88.8523
159.543,92.2243
159.69,90.3627
159.837,80.7811
159.985,67.4687
160.132,55.7532
160.28,51.3533
160.427,51.7282
160.574,46.7101
160.722,37.4121
160.869,29.4147
161.016,25.4762
161.164,28.3456
161.311,36.0233
161.458,45.4922
161.606,54.7112
161.753,60.1134
161.9,62.5111
162.048,68.7558
162.195,77.578
162.343,81.9346
162.49,81.9169
162.637,83.0295
162.785,86.7352
162.932,91.6819
163.079,97.0295
163.227,98.7445
163.374,96.9536
163.521,93.0317
163.669,88.085
163.816,85.8167
163.964,87.5089
164.111,93.3808
164.258,100.569
164.406,105.4
164.553,110.298
164.7,117.697
164.848,128.161
164.995,141.484
165.142,153.815
165.29,165.225
165.437,178.71
165.585,194.402
165.732,211.296
165.879,230.032
166.027,247.956
166.174,264.287
166.321,285.348
166.469,313.976
166.616,351.807
166.763,397.505
166.911,446.011
167.058,493.111
167.205,541.403
167.353,597.558
167.5,658.117
167.648,718.289
167.795,782.379
167.942,851.28
168.09,922.106
168.237,998.736
168.384,1082.82
168.532,1169.2
168.679,1252.28
168.826,1332.57
168.974,1411.35
169.121,1487.73
169.269,1567.09
169.416,1656.74
169.563,1753.11
169.711,1845.21
169.858,1933.64
170.005,2024.29
170.153,2114.45
170.3,2202.7
170.447,2296.65
170.595,2398.07
170.742,2501.54
170.89,2606.73
171.037,2722.9
171.184,2855.54
171.332,2996.89
171.479,3146.77
171.626,3307.38
171.774,3474.37
171.921,3647.27
172.068,3827.59
172.216,4003.96
172.363,4162.93
172.51,4301.46
172.658,4413
172.805,4492.51
172.953,4539.27
173.1,4553.85
173.247,4536.2
173.395,4490.69
173.542,4423.78
173.689,4335.34
173.837,4226.42
173.984,4101.1
174.131,3966.52
174.279,3829.12
174.426,3690.83
174.574,3552.13
174.721,3415.75
174.868,3281.99
175.016,3147.97
175.163,3012.09
175.31,2875.04
175.458,2741.72
175.605,2617.12
175.752,2505.49
175.9,2404.06
176.047,2302.9
176.195,2198.83
176.342,2095.08
176.489,1994.24
176.637,1899.34
176.784,1814.34
176.931,1737.44
177.079,1664.98
177.226,1593.12
177.373,1515.81
177.521,1435.38
177.668,1356.41
177.816,1279.59
177.963,1204.68
178.11,1132.87
178.258,1068.21
178.405,1008.13
178.552,946.024
178.7,883.061
178.847,823.831
178.994,767.097
179.142,707.461
179.289,645.97
179.436,591.235
179.584,545.081
179.731,504.738
179.879,468.06
180.026,427.422
180.173,378.617
180.321,331.278
180.468,296.784
180.615,274.927
180.763,258.517
180.91,240.65
181.057,221.559
181.205,204.006
181.352,188.77
181.5,177.98
181.647,170.925
181.794,164.082
181.942,156.026
182.089,146.705
182.236,138.53
182.384,133.72
182.531,130.948
182.678,128.899
182.826,122.644
182.973,109.295
183.121,94.8581
183.268,87.4712
183.415,87.8462
183.563,92.7049
183.71,98.9237
183.857,100.657
184.005,96.5176
184.152,92.1058
184.299,90.117
184.447,88.2302
184.594,88.6857
184.741,89.848
184.889,90.2736
185.036,96.069
185.184,106.122
185.331,110.349
185.478,104.72
185.626,94.9349
185.773,82.6236
185.92,70.5441
186.068,66.2401
186.215,71.548
186.362,80.4838
186.51,86.0851
186.657,84.1082
186.805,75.9361
186.952,66.4667
187.099,59.4038
187.247,59.2063
187.394,64.7688
187.541,68.9557
187.689,67.3967
187.836,64.0093
187.983,62.602
188.131,60.5309
188.278,54.4853
188.426,47.009
188.573,46.2245
188.72,54.5178
188.868,65.1434
189.015,70.7789
189.162,68.6391
189.31,63.2717
189.457,60.8585
189.604,57.4906
189.752,50.1314
189.899,43.5421
190.046,39.7858
190.194,37.1477
190.341,32.3298
190.489,25.4339
190.636,23.1388
190.783,26.8371
190.931,32.0461
191.078,33.7442
191.225,32.9725
191.373,35.5402
191.52,36.645
191.667,34.319
191.815,28.4937
191.962,19.6151
192.11,17.3443
192.257,24.2075
192.404,35.2742
192.552,45.2436
192.699,50.9403
192.846,53.2942
192.994,51.0357
193.141,45.1455
193.288,45.2183
193.436,51.4481
193.583,54.8108
193.731,53.8511
193.878,54.0162
194.025,60.1444
194.173,71.5847
194.32,83.4645
194.467,90.5012
194.615,92.7023
194.762,91.9486
194.909,86.8584
195.057,74.8438
195.204,59.9291
195.351,52.1761
195.499,56.1271
195.646,64.8248
195.794,69.1245
195.941,71.2311
196.088,75.157
196.236,79.4017
196.383,82.6541
196.53,84.3884
196.678,85.829
196.825,89.4052
196.972,94.3387
197.12,96.3716
197.267,96.0544
197.415,96.8594
197.562,98.5184
197.709,103.183
197.857,108.389
198.004,106.465
198.151,98.1558
198.299,87.7569
198.446,80.0206
198.593,78.4362
198.741,79.1313
198.888,77.7335
199.036,73.8462
199.183,65.4004
199.33,52.464
199.478,42.5722
199.625,40.6148
199.772,40.3995
199.92,39.0125
200.067,41.9736
200.214,49.3425
200.362,57.6774
200.509,64.688
200.656,67.4534
200.804,66.368
200.951,66.3018
201.099,68.0756
201.246,71.5764
201.393,75.9768
201.541,79.093
201.688,84.2732
201.835,89.6255
201.983,94.7695
202.13,102.358
202.277,109.202
202.425,113.25
202.572,112.414
202.72,106.497
202.867,97.2226
203.014,86.9871
203.162,78.7057
203.309,72.5837
203.456,66.0532
203.604,61.2882
203.751,62.2766
203.898,65.1055
204.046,68.2762
204.193,72.3628
204.341,74.4851
204.488,71.9619
204.635,68.9942
204.783,71.0501
204.93,71.5324
205.077,69.7003
205.225,72.1881
205.372,74.9503
205.519,74.915
205.667,73.08
205.814,69.7704
205.961,70.3917
206.109,75.1357
206.256,75.3022
206.404,69.202
206.551,66.9895
206.698,70.9837
206.846,71.6073
206.993,66.2883
207.14,59.7194
207.288,52.5833
207.435,42.1097
207.582,32.8906
207.73,30.4682
207.877,33.9047
208.025,38.5735
208.172,42.289
208.319,46.6172
208.467,50.4749
208.614,53.0758
208.761,53.4847
208.909,52.9134
209.056,52.6087
209.203,53.1154
209.351,57.2446
209.498,63.9629
209.646,68.5343
209.793,71.1511
209.94,75.4805
210.088,77.3613
210.235,73.6034
210.382,67.3358
210.53,62.1301
210.677,61.212
210.824,61.5874
210.972,58.7774
211.119,52.7084
211.266,45.7754
211.414,41.725
211.561,39.0926
211.709,37.2536
211.856,38.7526
212.003,44.686
212.151,56.9134
212.298,71.2513
212.445,81.2066
212.593,85.8182
212.74,84.0891
212.887,74.22
213.035,60.6157
213.182,46.734
213.33,34.0841
213.477,28.6157
213.624,29.4518
213.772,31.2894
213.919,35.3854
214.066,38.627
214.214,34.4558
214.361,28.6178
214.508,29.2845
214.656,39.3654
214.803,53.2178
214.951,60.9523
215.098,61.8805
215.245,59.3138
215.393,58.972
215.54,63.2261
215.687,68.997
215.835,74.7308
215.982,77.5912
216.129,76.1572
216.277,73.6843
216.424,72.9676
216.571,74.5918
216.719,76.7716
216.866,74.8084
217.014,69.0459
217.161,65.2341
217.308,64.445
217.456,64.6362
217.603,65.0298
217.75,64.7504
217.898,64.3718
218.045,65.0924
218.192,65.5485
218.34,64.1944
218.487,60.8292
218.635,54.0675
218.782,44.5326
218.929,36.4719
219.077,32.991
219.224,37.5541
219.371,48.7975
219.519,56.0933
219.666,56.8164
219.813,57.6141
219.961,57.8748
220.108,57.9558
220.256,65.18
220.403,76.5483
220.55,84.1985
220.698,86.8557
220.845,85.0061
220.992,81.7688
221.14,81.0474
221.287,84.71
221.434,90.2427
221.582,98.2053
221.729,105.937
221.876,106.219
222.024,102.018
222.171,96.7355
222.319,94.2016
222.466,92.8237
222.613,84.9122
222.761,74.0567
222.908,66.2195
223.055,59.3865
223.203,52.7074
223.35,49.4066
223.497,48.9592
223.645,44.2727
223.792,33.3057
223.94,24.1593
224.087,23.8503
224.234,33.7735
224.382,44.8998
224.529,50.9446
224.676,54.1874
224.824,57.4741
224.971,66.1311
225.118,78.8334
225.266,87.5449
225.413,88.4539
225.561,82.6367
225.708,70.1114
225.855,56.1166
226.003,42.8659
226.15,29.6396
226.297,24.2147
226.445,29.9091
226.592,42.919
226.739,55.9329
226.887,64.2453
227.034,68.48
227.181,74.6662
227.329,84.181
227.476,89.4261
227.624,93.5629
227.771,96.7177
227.918,92.6951
228.066,88.7945
228.213,90.2797
228.36,93.3539
228.508,93.7566
228.655,91.5902
228.802,86.9845
228.95,80.0083
229.097,79.1889
229.245,84.2615
229.392,87.2999
229.539,86.7734
229.687,86.0528
229.834,89.2732
229.981,92.0338
230.129,92.7624
230.276,94.8258
230.423,95.8941
230.571,93.8579
230.718,87.8251
230.866,77.0302
231.013,65.8829
231.16,57.2985
231.308,48.384
231.455,44.526
231.602,51.9449
231.75,66.9352
231.897,82.9825
232.044,94.3137
232.192,99.6787
232.339,100.134
232.486,98.1908
232.634,95.0672
232.781,88.7816
232.929,82.0038
233.076,78.9223
233.223,76.0411
233.371,74.292
233.518,80.4041
233.665,88.9307
233.813,88.6827
233.96,79.1529
234.107,68.3654
234.255,60.1021
234.402,59.5559
234.55,68.6874
234.697,80.4041
234.844,90.936
234.992,97.9821
235.139,101.702
235.286,104.916
235.434,106.749
235.581,103.426
235.728,96.4168
235.876,89.28
236.023,84.8013
236.171,83.4459
236.318,80.1639
236.465,76.3186
236.613,77.6957
236.76,81.5626
236.907,81.7679
237.055,80.9118
237.202,81.7021
237.349,83.4004
237.497,84.7996
237.644,82.4859
237.791,81.0125
237.939,87.4477
238.086,97.0411
238.234,99.3131
238.381,93.4576
238.528,88.933
238.676,91.3928
238.823,93.6396
238.97,90.8012
239.118,88.0832
239.265,86.8223
239.412,89.1349
239.56,95.8022
239.707,102.367
239.855,106.6
240.002,104.078
240.149,94.3756
240.297,82.1546
240.444,72.5193
240.591,70.2149
240.739,73.4096
240.886,78.2328
241.033,81.5271
241.181,82.2889
241.328,83.5231
241.476,83.428
241.623,78.0025
241.77,73.3761
241.918,75.0437
242.065,76.8519
242.212,73.2772
242.36,65.8949
242.507,56.3402
242.654,47.3364
242.802,44.021
242.949,45.2834
243.096,48.3636
243.244,55.2131
243.391,64.7445
243.539,71.4141
243.686,76.2567
243.833,80.583
243.981,78.3363
244.128,70.4032
244.275,66.1997
244.423,68.4431
244.57,74.0507
244.717,84.8499
244.865,93.2179
245.012,90.7421
245.16,84.4631
245.307,80.9959
245.454,79.6253
245.602,77.9193
245.749,80.4826
245.896,85.894
246.044,87.2043
246.191,85.2448
246.338,82.9306
246.486,82.9813
246.633,83.6402
246.781,83.5996
246.928,85.759
247.075,89.9743
247.223,91.9125
247.37,89.9722
247.517,87.9646
247.665,89.6159
247.812,92.9426
247.959,95.7757
248.107,98.2083
248.254,96.6959
248.402,89.3429
248.549,77.7787
248.696,66.6583
248.844,61.8352
248.991,65.4773
249.138,69.8074
249.286,69.918
249.433,72.5253
249.58,79.0139
249.728,87.8653
249.875,95.2755
250.022,95.695
250.17,91.711
250.317,90.9684
250.465,92.1395
250.612,89.9036
250.759,88.0747
250.907,87.0365
251.054,84.0286
251.201,80.8261
251.349,78.9872
251.496,79.6833
251.643,81.6269
251.791,81.1413
251.938,81.5296
252.086,84.7248
252.233,83.3881
252.38,75.9999
252.528,68.8449
252.675,63.0192
252.822,57.4148
252.97,54.0852
253.117,54.3439
253.264,58.2348
253.412,62.1844
253.559,65.4977
253.707,70.4679
253.854,78.2154
254.001,86.7317
254.149,91.5747
254.296,91.3759
254.443,87.676
254.591,85.0909
254.738,81.4667
254.885,73.0969
255.033,64.4523
255.18,61.1753
255.327,62.4319
255.475,63.0042
255.622,62.5368
255.77,64.4129
255.917,69.8001
256.064,76.3837
256.212,82.1686
256.359,87.9065
256.506,93.8726
256.654,94.9602
256.801,89.4168
256.948,83.5713
257.096,79.6137
257.243,75.6594
257.391,74.2494
257.538,74.4844
257.685,72.2732
257.833,69.2891
257.98,67.5509
258.127,65.613
258.275,61.8906
258.422,60.258
258.569,62.3346
258.717,64.0732
258.864,63.6365
259.012,60.6423
259.159,53.8518
259.306,44.5228
259.454,34.6579
259.601,24.4779
259.748,14.6114
259.896,3.08509
260.043,-10.5636
260.19,-25.2798
260.338,-38.7878
260.485,-47.9355
260.632,-53.2036
260.78,-56.0045
260.927,-56.9701